#!/bin/bash
gmt gmtset PS_MEDIA letter
gmt gmtset PROJ_LENGTH_UNIT cm
gmt gmtset PS_PAGE_ORIENTATION portrait
psfile=wells6.1_tt2_teleseismic_p.ps
projection=-JX18/12
region=-R10/120/-10/10
gmt psbasemap $region $projection -Bxa10f5+l'Epicentral Distance (deg)' -Bya10f1g5+l'Travel Time Residual (s)' -BWeSn+t'Teleseismic P wells6.1' -K > $psfile
gmt psxy -: -R $projection -Wthick,green -K -O << END >> $psfile
     9.711    78.000
     8.536    79.000
     7.445    80.000
     6.440    81.000
     5.521    82.000
     4.686    83.000
     3.935    84.000
     3.271    85.000
     2.694    86.000
     2.194    87.000
     1.797    88.000
     1.498    89.000
     1.240    90.000
     1.013    91.000
     0.812    92.000
     0.630    93.000
     0.465    94.000
     0.319    95.000
     0.200    96.000
     0.107    97.000
     0.041    98.000
     0.006    99.000
END
gmt psxy -: -R $projection -Sx -Wthin,black -K -O << END >> $psfile
     0.802    21.384     0.200
     3.421    17.414     0.200
     1.824    18.039     0.200
    -0.661    18.364     0.200
     1.041    18.452     0.200
     3.387    18.724     0.200
     2.353    18.841     0.200
     2.755    19.052     0.200
     1.946    19.053     0.200
     2.721    19.092     0.200
     4.432    19.255     0.200
     1.540    19.341     0.200
     4.090    19.456     0.200
     2.553    19.764     0.200
     5.152    19.804     0.200
     3.990    20.026     0.200
     1.421    20.082     0.200
     2.990    20.085     0.200
     3.987    20.517     0.200
     4.859    20.612     0.200
     3.490    20.641     0.200
     2.900    20.680     0.200
     4.875    20.809     0.200
     7.925    21.041     0.200
     4.046    21.129     0.200
     2.612    21.181     0.200
     3.831    21.410     0.200
     1.180    21.386     0.200
     3.180    21.665     0.200
     2.208    21.719     0.200
     2.920    21.926     0.200
     1.391    21.972     0.200
     2.886    22.141     0.200
     3.609    22.352     0.200
     2.303    22.370     0.200
     1.980    23.264     0.200
     2.519    23.441     0.200
     4.424    24.014     0.200
     6.021    24.091     0.200
     1.459    24.131     0.200
     5.553    24.369     0.200
     2.905    24.413     0.200
     4.975    24.476     0.200
     1.339    24.748     0.200
     2.681    24.898     0.200
     2.236    24.898     0.200
     1.656    25.337     0.200
     5.138    25.517     0.200
     2.320    25.953     0.200
     7.691    26.017     0.200
     1.852    26.049     0.200
     0.585    26.222     0.200
     2.315    26.266     0.200
     1.140    26.516     0.200
     1.555    26.630     0.200
     2.100    26.885     0.200
     4.825    27.027     0.200
     3.633    27.109     0.200
     2.876    27.208     0.200
     1.445    27.337     0.200
     3.612    27.699     0.200
     1.001    27.831     0.200
     4.619    28.075     0.200
     3.629    28.357     0.200
     2.731    28.509     0.200
     1.635    28.591     0.200
     4.006    28.626     0.200
     2.405    28.645     0.200
     1.560    28.865     0.200
     1.269    28.898     0.200
     2.226    28.917     0.200
     2.876    29.018     0.200
     3.508    29.018     0.200
     5.569    29.060     0.200
     3.515    29.080     0.200
     2.294    29.125     0.200
     5.333    29.327     0.200
     2.297    29.508     0.200
     3.452    29.499     0.200
    -1.119    29.514     0.200
     4.556    29.862     0.200
     1.441    30.051     0.200
     3.845    30.079     0.200
     2.253    30.189     0.200
     4.248    30.327     0.200
     1.604    30.357     0.200
     2.188    30.448     0.200
     1.741    30.478     0.200
     2.541    30.679     0.200
     4.635    30.740     0.200
     1.092    30.740     0.200
     3.935    30.746     0.200
     4.512    30.938     0.200
     2.271    31.045     0.200
     2.965    31.289     0.200
     2.475    31.317     0.200
     2.913    31.453     0.200
     3.350    31.449     0.200
     4.083    31.609     0.200
     4.608    31.681     0.200
     4.772    31.866     0.200
     4.517    32.482     0.200
     5.250    32.542     0.200
     6.578    32.886     0.200
     1.033    34.232     0.200
     3.563    34.665     0.200
     2.970    34.721     0.200
     2.514    34.867     0.200
     4.002    34.966     0.200
     3.839    34.980     0.200
     3.378    35.016     0.200
     3.821    35.465     0.200
     3.797    35.597     0.200
     2.483    36.070     0.200
     3.896    36.122     0.200
    -1.531    36.319     0.200
     2.475    37.703     0.200
     3.500    38.135     0.200
     3.802    38.294     0.200
     3.132    39.238     0.200
     3.716    39.580     0.200
     2.120    40.485     0.200
     0.231    40.662     0.200
     4.623    40.943     0.200
     6.485    41.336     0.200
     1.193    42.657     0.200
     3.501    42.977     0.200
     2.821    42.977     0.200
     0.343    43.143     0.200
     1.577    44.759     0.200
     3.455    47.224     0.200
     1.564    47.282     0.200
     2.231    47.549     0.200
     2.572    48.536     0.200
     3.119    50.557     0.200
     4.176    51.165     0.200
     0.516    51.761     0.200
     3.300    52.375     0.200
     2.261    52.819     0.200
     6.478    54.921     0.200
     3.506    55.513     0.200
     3.608    55.513     0.200
     4.079    56.253     0.200
     3.809    56.253     0.200
     3.758    56.611     0.200
     3.416    57.093     0.200
     2.787    57.093     0.200
     3.426    58.544     0.200
     2.209    58.951     0.200
     3.856    59.074     0.200
     6.776    60.625     0.200
     6.382    63.682     0.200
     6.494    63.771     0.200
     2.176    64.476     0.200
     2.906    64.852     0.200
     1.403    65.864     0.200
     6.015    65.932     0.200
     0.718    65.947     0.200
     6.348    66.300     0.200
     6.362    66.579     0.200
     6.012    66.603     0.200
     6.449    66.691     0.200
     6.467    66.735     0.200
     6.311    66.775     0.200
     6.174    66.701     0.200
     5.876    66.725     0.200
     1.557    67.193     0.200
     1.361    67.571     0.200
     1.980    67.675     0.200
     0.821    67.767     0.200
     2.264    67.776     0.200
     6.445    68.113     0.200
     2.743    68.497     0.200
     3.243    68.497     0.200
    -1.389    68.518     0.200
     2.649    68.881     0.200
     2.449    68.881     0.200
     2.716    68.982     0.200
     1.313    69.144     0.200
     2.286    69.144     0.200
     5.403    69.664     0.200
     2.493    69.664     0.200
     3.488    69.990     0.200
     3.102    70.216     0.200
     3.542    70.332     0.200
     4.010    70.411     0.200
     1.566    70.626     0.200
    -0.428    71.322     0.200
     2.945    71.541     0.200
     3.175    71.918     0.200
     2.701    72.382     0.200
     1.171    72.437     0.200
     2.690    72.720     0.200
     2.577    72.789     0.200
     0.641    72.812     0.200
     1.398    73.275     0.200
     3.135    73.439     0.200
     3.159    73.519     0.200
     3.959    73.678     0.200
     4.596    73.684     0.200
     3.038    73.727     0.200
     4.137    74.189     0.200
     2.898    74.264     0.200
     2.883    74.301     0.200
     3.502    74.362     0.200
     2.837    74.498     0.200
     4.478    74.663     0.200
     3.284    74.662     0.200
     4.197    74.763     0.200
     3.454    74.759     0.200
     3.563    74.805     0.200
     3.706    74.831     0.200
     3.295    74.876     0.200
     2.459    74.892     0.200
     3.401    74.901     0.200
     2.620    74.950     0.200
     3.079    74.957     0.200
     0.904    75.004     0.200
     3.134    75.034     0.200
     3.646    75.038     0.200
     3.070    75.115     0.200
     3.338    75.224     0.200
     2.845    75.292     0.200
     2.453    75.396     0.200
     3.078    75.443     0.200
     2.129    75.443     0.200
     3.250    75.466     0.200
     3.010    75.631     0.200
     2.507    75.735     0.200
     4.023    75.804     0.200
     3.511    75.804     0.200
     3.312    75.804     0.200
     2.024    75.854     0.200
     3.265    75.900     0.200
     3.032    75.975     0.200
     3.639    76.167     0.200
     2.571    76.179     0.200
     3.359    76.181     0.200
     1.996    76.227     0.200
     3.261    76.357     0.200
     2.945    76.360     0.200
     2.049    76.359     0.200
     2.277    76.430     0.200
    -0.090    76.419     0.200
     2.613    76.419     0.200
     2.088    76.440     0.200
     2.861    76.480     0.200
     2.971    76.532     0.200
     2.919    76.541     0.200
     3.194    76.545     0.200
     2.749    76.589     0.200
     4.259    76.658     0.200
     2.656    76.658     0.200
     2.604    76.703     0.200
     3.043    76.731     0.200
     2.734    76.803     0.200
     3.616    76.842     0.200
     2.755    76.853     0.200
     2.911    76.861     0.200
     3.053    76.872     0.200
     3.528    76.893     0.200
     2.249    76.907     0.200
     1.436    76.928     0.200
     3.142    76.980     0.200
     2.565    76.994     0.200
     3.275    77.027     0.200
     3.348    77.032     0.200
     3.298    77.130     0.200
     2.661    77.225     0.200
     3.418    77.233     0.200
     3.204    77.253     0.200
     3.457    77.301     0.200
     3.040    77.319     0.200
     3.277    77.329     0.200
     3.313    77.323     0.200
     2.914    77.323     0.200
     2.977    77.330     0.200
     3.377    77.348     0.200
     3.511    77.341     0.200
     2.511    77.341     0.200
     2.811    77.395     0.200
     3.785    77.489     0.200
     3.245    77.496     0.200
     3.487    77.524     0.200
     3.408    77.574     0.200
     2.700    77.594     0.200
     2.056    77.745     0.200
     4.046    77.747     0.200
     2.624    77.751     0.200
     2.710    77.753     0.200
     3.095    77.792     0.200
     2.895    77.792     0.200
     2.722    77.791     0.200
     2.842    77.783     0.200
     3.636    77.784     0.200
     3.034    77.784     0.200
     2.307    77.825     0.200
     2.797    77.827     0.200
     3.748    77.836     0.200
     2.548    77.836     0.200
     2.840    77.838     0.200
     2.830    77.893     0.200
     2.967    77.905     0.200
     3.431    77.911     0.200
     3.431    77.911     0.200
     2.104    77.952     0.200
     1.579    77.956     0.200
     2.973    77.958     0.200
     3.770    77.976     0.200
     2.834    78.036     0.200
     3.177    78.047     0.200
     2.876    78.047     0.200
     3.947    78.052     0.200
     1.442    78.053     0.200
     3.616    78.058     0.200
     2.948    78.124     0.200
     3.156    78.248     0.200
     3.200    78.331     0.200
     3.046    78.522     0.200
     3.745    78.541     0.200
     3.925    78.562     0.200
     2.397    78.607     0.200
     3.003    78.621     0.200
     3.124    78.707     0.200
    -0.205    78.876     0.200
     3.314    78.891     0.200
     3.225    78.925     0.200
     3.585    78.951     0.200
     3.085    78.951     0.200
     3.795    78.986     0.200
     3.824    78.999     0.200
     2.962    79.010     0.200
     3.211    79.019     0.200
    -0.695    79.075     0.200
     3.455    79.121     0.200
     3.717    79.128     0.200
     3.410    79.129     0.200
     3.945    79.177     0.200
     4.120    79.200     0.200
     3.607    79.203     0.200
     3.847    79.213     0.200
     3.847    79.213     0.200
     4.023    79.224     0.200
     3.247    79.232     0.200
     4.183    79.298     0.200
     3.626    79.364     0.200
     4.099    79.387     0.200
     3.414    79.444     0.200
     3.666    79.503     0.200
     2.272    79.521     0.200
     3.362    79.559     0.200
     2.773    79.576     0.200
     2.734    79.576     0.200
     4.176    79.623     0.200
     3.296    79.663     0.200
     4.112    79.700     0.200
     4.286    79.702     0.200
     3.445    79.728     0.200
     3.793    79.793     0.200
     3.587    79.794     0.200
     4.190    79.794     0.200
     3.773    79.833     0.200
     4.131    79.842     0.200
     3.833    79.906     0.200
     3.362    79.909     0.200
     3.411    79.937     0.200
     4.199    79.988     0.200
     4.378    79.998     0.200
     2.961    80.094     0.200
     3.224    80.268     0.200
     2.533    80.285     0.200
     2.583    80.294     0.200
     3.656    80.318     0.200
     3.798    80.347     0.200
     5.707    80.457     0.200
     3.417    80.455     0.200
     3.202    80.600     0.200
     2.847    80.617     0.200
     1.010    80.699     0.200
     2.879    80.723     0.200
     3.173    80.724     0.200
     2.690    80.759     0.200
     3.359    80.764     0.200
     1.759    80.890     0.200
     3.667    80.845     0.200
     5.367    80.988     0.200
     2.062    80.988     0.200
     2.047    81.067     0.200
     3.599    81.165     0.200
     3.655    81.166     0.200
     3.672    81.344     0.200
     3.447    81.424     0.200
     3.451    81.574     0.200
     3.327    81.585     0.200
     3.449    81.594     0.200
     3.253    81.669     0.200
     2.952    81.669     0.200
     3.151    81.669     0.200
     2.411    81.795     0.200
     2.933    81.824     0.200
     2.438    81.854     0.200
     2.709    81.905     0.200
     3.079    81.911     0.200
     3.197    81.922     0.200
     4.073    81.950     0.200
     2.984    82.162     0.200
     4.436    82.204     0.200
     4.258    82.219     0.200
     4.360    82.219     0.200
     2.995    82.338     0.200
     2.292    82.327     0.200
     3.192    82.367     0.200
     4.728    82.397     0.200
     3.422    82.417     0.200
     2.956    82.430     0.200
     2.521    82.460     0.200
     3.098    82.485     0.200
     5.427    82.493     0.200
     2.887    82.501     0.200
     4.010    82.553     0.200
     2.258    82.641     0.200
     2.458    82.641     0.200
     3.302    82.670     0.200
     3.683    82.693     0.200
     2.856    82.754     0.200
     2.688    82.923     0.200
     3.121    82.936     0.200
     3.789    83.020     0.200
     1.136    83.146     0.200
     2.019    83.294     0.200
     1.370    83.294     0.200
     0.760    83.296     0.200
     2.990    83.310     0.200
     3.444    83.659     0.200
     3.209    83.656     0.200
     3.527    83.730     0.200
     3.052    83.745     0.200
     2.792    83.757     0.200
     3.417    83.908     0.200
     3.216    84.144     0.200
     2.504    84.158     0.200
     4.174    84.171     0.200
     3.795    84.171     0.200
     3.767    84.528     0.200
    -1.352    84.719     0.200
     4.022    84.655     0.200
     3.102    84.660     0.200
     3.301    84.660     0.200
     2.536    84.768     0.200
     4.328    84.797     0.200
     3.700    84.799     0.200
     2.984    85.050     0.200
     3.164    85.145     0.200
     2.920    85.273     0.200
     1.831    85.271     0.200
     3.416    85.354     0.200
     1.719    85.534     0.200
     2.006    85.717     0.200
     1.917    85.876     0.200
     3.174    85.885     0.200
     3.014    85.885     0.200
    -0.944    85.949     0.200
     2.348    86.073     0.200
     2.717    86.102     0.200
     2.049    86.377     0.200
     2.190    86.490     0.200
     1.828    86.625     0.200
     3.228    86.646     0.200
     3.037    86.646     0.200
     3.851    86.825     0.200
     3.575    86.820     0.200
     2.715    86.832     0.200
     3.286    86.832     0.200
     3.272    86.903     0.200
     3.440    86.903     0.200
     0.469    87.634     0.200
     1.999    87.766     0.200
     2.522    87.766     0.200
     2.696    87.966     0.200
     4.230    88.159     0.200
     3.245    88.219     0.200
     5.215    88.268     0.200
     2.684    88.268     0.200
     2.823    88.457     0.200
     3.001    88.631     0.200
     3.169    88.631     0.200
     1.603    88.717     0.200
     0.894    88.753     0.200
     2.013    88.794     0.200
     3.071    88.998     0.200
     1.645    89.302     0.200
     2.054    89.309     0.200
     1.646    89.430     0.200
     3.287    89.464     0.200
     2.355    89.556     0.200
     2.783    89.572     0.200
     3.044    89.710     0.200
     3.494    89.783     0.200
     3.285    89.870     0.200
     0.866    89.875     0.200
     1.751    89.942     0.200
     1.231    90.053     0.200
     0.850    90.135     0.200
     0.162    90.325     0.200
     2.432    90.461     0.200
     3.335    90.610     0.200
     1.399    90.596     0.200
     2.436    90.879     0.200
     3.047    90.909     0.200
     0.815    90.937     0.200
     3.845    90.974     0.200
     1.740    91.126     0.200
     2.415    91.126     0.200
     3.354    91.187     0.200
     2.718    91.195     0.200
     0.144    91.232     0.200
     3.721    91.431     0.200
     0.754    91.532     0.200
     2.729    91.646     0.200
     1.907    91.651     0.200
     3.312    91.715     0.200
     0.741    91.773     0.200
     2.894    91.913     0.200
    -0.758    91.989     0.200
     0.604    92.300     0.200
     0.918    92.383     0.200
     0.948    92.507     0.200
     2.877    92.609     0.200
     2.622    92.642     0.200
     2.475    92.674     0.200
     1.354    92.765     0.200
     3.364    92.915     0.200
     2.286    92.915     0.200
     3.363    93.023     0.200
     1.244    93.549     0.200
     3.161    93.827     0.200
     3.953    94.382     0.200
     2.956    94.561     0.200
     1.269    94.784     0.200
     1.190    95.283     0.200
     4.133    95.339     0.200
     2.525    95.406     0.200
     3.656    95.468     0.200
     2.640    95.515     0.200
     1.159    95.640     0.200
     3.456    95.750     0.200
     0.510    95.782     0.200
     2.272    95.791     0.200
    -0.054    95.972     0.200
     3.020    96.000     0.200
     1.501    96.114     0.200
     3.613    96.178     0.200
     3.910    96.178     0.200
     2.162    96.217     0.200
     3.392    96.583     0.200
     0.573    96.750     0.200
     3.317    96.993     0.200
     3.864    97.247     0.200
     5.364    97.247     0.200
     4.164    97.247     0.200
     6.085    97.664     0.200
     2.557    98.822     0.200
     1.472    21.395     0.200
     2.398    57.071     0.200
     4.328    57.425     0.200
     0.556    67.806     0.200
    -0.032    69.169     0.200
     1.182    70.650     0.200
     0.770    76.908     0.200
     3.099    77.940     0.200
     1.684    79.604     0.200
     1.587    82.998     0.200
     0.632    83.317     0.200
     0.239    83.785     0.200
     1.483    84.148     0.200
     0.166    86.108     0.200
     1.450    87.769     0.200
     1.389    91.127     0.200
     0.615    91.892     0.200
     1.264    95.010     0.200
    -1.384    95.327     0.200
     1.159    21.391     0.200
    -0.061    76.937     0.200
     1.869    79.569     0.200
     0.248    88.168     0.200
     1.188    95.034     0.200
    -0.045    95.348     0.200
     1.410    21.401     0.200
     2.124    84.155     0.200
     0.996    91.133     0.200
     2.105    18.760     0.200
     3.836    18.879     0.200
     2.781    19.092     0.200
     3.316    19.787     0.200
     1.265    21.386     0.200
     3.145    30.309     0.200
     3.174    31.025     0.200
     1.707    34.873     0.200
     2.182    35.038     0.200
     1.927    42.997     0.200
     3.181    74.827     0.200
     3.196    74.898     0.200
     2.468    77.760     0.200
     1.700    77.980     0.200
     2.595    79.534     0.200
     3.228    82.992     0.200
     0.638    83.308     0.200
     1.401    85.747     0.200
     1.821    88.137     0.200
     1.264    95.002     0.200
     2.318    95.319     0.200
     2.361    19.124     0.200
     1.329    21.401     0.200
     2.761    57.079     0.200
     1.168    76.917     0.200
     1.099    91.133     0.200
    -1.412    34.882     0.200
    11.345    14.226     0.200
    -1.136    17.995     0.200
     2.171    18.063     0.200
     5.137    19.122     0.200
    -0.523    19.467     0.200
     1.905    21.156     0.200
     1.405    21.407     0.200
     2.718    21.694     0.200
     2.910    21.954     0.200
     1.485    22.006     0.200
     3.295    22.173     0.200
     2.673    23.470     0.200
     1.591    24.164     0.200
     1.680    24.927     0.200
     1.588    29.030     0.200
     2.347    33.029     0.200
     1.412    34.270     0.200
     1.748    34.893     0.200
     2.601    48.539     0.200
     3.057    55.514     0.200
     2.945    57.085     0.200
     1.993    58.960     0.200
     1.477    58.960     0.200
     0.262    69.176     0.200
     5.215    72.825     0.200
    -0.283    73.281     0.200
     5.324    76.568     0.200
     6.446    76.581     0.200
     4.908    76.694     0.200
     0.614    76.923     0.200
     5.313    77.029     0.200
     1.152    77.165     0.200
     5.777    77.268     0.200
     3.599    77.531     0.200
     1.415    77.780     0.200
     6.244    78.080     0.200
     1.635    79.556     0.200
     1.943    79.610     0.200
     0.359    83.325     0.200
     0.833    83.799     0.200
     1.873    84.163     0.200
     2.930    88.002     0.200
     0.876    88.160     0.200
     3.048    90.878     0.200
     1.627    91.140     0.200
     1.574    91.907     0.200
    -0.205    92.638     0.200
     1.275    95.341     0.200
     6.362    29.016     0.200
     1.215    21.335     0.200
     3.656    76.903     0.200
     5.284    79.533     0.200
     3.771    86.796     0.200
     3.158    88.128     0.200
     1.367    95.306     0.200
     1.266    21.382     0.200
     2.434    84.136     0.200
     1.154    21.398     0.200
     1.098    21.401     0.200
     1.499    19.067     0.200
     4.909    21.117     0.200
     1.336    21.307     0.200
     1.804    21.910     0.200
     1.777    23.576     0.200
     4.180    48.481     0.200
     0.036    76.886     0.200
     2.263    79.516     0.200
     1.273    83.211     0.200
     1.037    83.713     0.200
     1.607    84.099     0.200
    -0.060    86.024     0.200
     0.950    86.778     0.200
     0.638    88.108     0.200
     1.441    91.054     0.200
     3.348    92.955     0.200
     1.266    21.314     0.200
     0.294    86.779     0.200
    -0.322    88.110     0.200
     4.177    92.960     0.200
     0.785    95.287     0.200
END
gmt psxy -: -R $projection -Sx -Wthin,red -K -O << END >> $psfile
     3.727    99.913     0.200
     1.525   100.422     0.200
     1.291   100.422     0.200
     2.006   100.436     0.200
     4.631   102.499     0.200
     1.605   105.407     0.200
    -0.978   107.180     0.200
     0.832   102.482     0.200
     1.150    99.922     0.200
     0.354   102.508     0.200
     0.614    99.891     0.200
     2.631   102.474     0.200
     2.939   102.490     0.200
     2.177    99.914     0.200
     2.094   102.496     0.200
     3.948    99.881     0.200
     4.238   102.471     0.200
     3.524    99.862     0.200
     0.307   102.452     0.200
END
gmt psxy -: -R $projection -Sx -Wthin,green -K -O << END >> $psfile
   107.599    42.977     0.200
    59.957    56.611     0.200
    49.856    59.074     0.200
    32.508    64.852     0.200
    23.902    70.216     0.200
    21.047    71.541     0.200
    14.413    77.341     0.200
     7.510    80.699     0.200
     3.621    81.637     0.200
     8.677    81.911     0.200
     4.183    82.693     0.200
     3.350    82.738     0.200
   243.359    21.401     0.200
   245.515    21.386     0.200
   244.679    21.401     0.200
   245.100    21.407     0.200
    11.614    76.923     0.200
END
gmt pstext -: -R $projection -F+f10p,Helvetica-Bold,green+a0.+jBL -K -O << END >> $psfile
    -8.500    12.000 PcP in green
END
gmt pstext -: -R $projection -F+f10p,Helvetica-Bold,red+a0.+jBL -O << END >> $psfile
    -9.500    12.000 Pdiff in red
END
