#!/bin/bash
gmt gmtset PS_MEDIA letter
gmt gmtset PROJ_LENGTH_UNIT cm
gmt gmtset PS_PAGE_ORIENTATION portrait
psfile=mangyshlak4.1_tt2_teleseismic_p.ps
projection=-JX18/12
region=-R10/120/-10/10
gmt psbasemap $region $projection -Bxa10f5+l'Epicentral Distance (deg)' -Bya10f1g5+l'Travel Time Residual (s)' -BWeSn+t'Teleseismic P mangyshlak4.1' -K > $psfile
gmt psxy -: -R $projection -Wthick,green -K -O << END >> $psfile
     9.740    78.000
     8.563    79.000
     7.470    80.000
     6.463    81.000
     5.542    82.000
     4.705    83.000
     3.951    84.000
     3.286    85.000
     2.706    86.000
     2.204    87.000
     1.805    88.000
     1.504    89.000
     1.245    90.000
     1.018    91.000
     0.816    92.000
     0.634    93.000
     0.468    94.000
     0.322    95.000
     0.202    96.000
     0.108    97.000
     0.042    98.000
     0.007    99.000
END
gmt psxy -: -R $projection -Sx -Wthin,black -K -O << END >> $psfile
    -1.903    20.434     0.200
    -0.980    21.013     0.200
    -2.223    21.593     0.200
    -0.036    21.389     0.200
    -3.012    21.759     0.200
    -2.211    21.759     0.200
    -2.040    21.762     0.200
    -1.727    22.050     0.200
    -1.511    22.678     0.200
    -1.958    22.861     0.200
    -1.503    23.597     0.200
    -1.510    26.345     0.200
     0.117    27.274     0.200
    -0.782    30.727     0.200
     1.291    30.798     0.200
     1.357    31.573     0.200
     1.351    32.439     0.200
     1.173    33.145     0.200
    -0.617    34.754     0.200
    -0.029    36.338     0.200
    -0.208    36.605     0.200
     1.177    36.853     0.200
     0.508    37.261     0.200
     2.718    37.142     0.200
    -0.611    38.613     0.200
    -0.410    38.613     0.200
     1.198    40.712     0.200
    -1.087    42.454     0.200
    -1.026    44.129     0.200
    -1.936    45.750     0.200
     0.021    51.071     0.200
    -1.369    53.956     0.200
     0.356    55.233     0.200
     0.065    56.248     0.200
     0.253    58.631     0.200
    -2.097    63.543     0.200
     1.401    17.768     0.200
    -1.273    19.158     0.200
    -0.228    19.702     0.200
    -1.556    19.778     0.200
    -2.397    19.946     0.200
    -1.005    20.554     0.200
    -0.158    21.122     0.200
     0.901    21.210     0.200
    -1.652    21.726     0.200
    -1.167    21.774     0.200
    -0.750    23.287     0.200
    -0.379    23.489     0.200
    -1.235    24.158     0.200
     0.058    24.400     0.200
    -1.065    24.413     0.200
    -2.406    24.550     0.200
    -2.584    25.404     0.200
    -0.419    26.335     0.200
    -0.477    26.851     0.200
    -2.541    27.492     0.200
    -0.850    27.895     0.200
    -0.969    27.931     0.200
    -2.343    27.973     0.200
    -0.102    28.361     0.200
    -0.672    28.582     0.200
    -1.209    28.822     0.200
    -1.120    28.947     0.200
    -1.171    29.325     0.200
    -1.184    29.529     0.200
    -0.560    29.729     0.200
     0.570    29.918     0.200
     0.305    30.061     0.200
    -1.576    30.070     0.200
    -1.026    30.211     0.200
    -0.021    30.686     0.200
    -1.338    31.493     0.200
    -1.546    31.562     0.200
    -0.519    31.969     0.200
    -1.030    32.141     0.200
    -0.618    32.458     0.200
    -0.050    32.507     0.200
    -0.744    32.758     0.200
    -0.332    33.134     0.200
    -0.268    33.310     0.200
    -0.957    33.607     0.200
    -0.756    33.733     0.200
    -0.509    34.257     0.200
    -1.234    35.173     0.200
    -1.602    35.297     0.200
     0.622    35.865     0.200
     0.477    37.288     0.200
    -0.062    37.352     0.200
    -1.347    37.574     0.200
    -1.421    37.772     0.200
    -1.547    38.107     0.200
     0.769    38.854     0.200
    -0.637    43.422     0.200
    -1.050    44.207     0.200
    -1.264    44.534     0.200
    -1.899    44.864     0.200
     0.054    45.096     0.200
     0.167    45.788     0.200
    -1.643    46.653     0.200
    -0.655    46.961     0.200
     1.336    47.733     0.200
    -1.502    48.708     0.200
    -0.700    50.134     0.200
    -1.811    50.598     0.200
     0.644    51.468     0.200
    -1.384    55.655     0.200
     0.393    59.013     0.200
    -0.636    60.017     0.200
    -0.455    60.107     0.200
    -0.724    60.117     0.200
    -0.028    61.055     0.200
     0.131    61.415     0.200
    -0.935    61.573     0.200
    -0.813    62.537     0.200
    -0.226    62.809     0.200
    -1.191    62.819     0.200
    -0.960    62.949     0.200
    -1.495    63.015     0.200
    -0.918    63.637     0.200
    -1.356    63.855     0.200
    -1.110    63.772     0.200
    -1.442    64.661     0.200
    -0.700    67.976     0.200
    -1.248    68.063     0.200
    -1.733    67.981     0.200
     0.179    69.244     0.200
     0.107    69.369     0.200
    -1.354    69.735     0.200
    -1.359    69.882     0.200
    -0.095    70.050     0.200
    -0.760    70.110     0.200
    -0.172    70.144     0.200
    -0.651    70.386     0.200
    -0.671    72.291     0.200
     0.052    72.505     0.200
    -1.259    73.130     0.200
    -0.492    73.152     0.200
    -0.329    73.446     0.200
    -1.398    73.339     0.200
    -1.577    73.658     0.200
     0.265    74.592     0.200
    -0.699    74.534     0.200
    -1.112    76.224     0.200
    -0.818    76.226     0.200
    -0.365    77.475     0.200
    -1.337    79.810     0.200
    -0.644    80.851     0.200
    -0.078    81.026     0.200
     0.191    81.901     0.200
    -0.171    82.046     0.200
    -0.686    82.756     0.200
    -0.750    82.826     0.200
    -1.528    85.313     0.200
    -0.822    86.727     0.200
    -1.415    87.074     0.200
     0.455    87.389     0.200
    -0.389    87.606     0.200
    -1.180    87.646     0.200
    -0.279    87.981     0.200
     0.106    88.280     0.200
     0.137    89.484     0.200
    -0.575    89.722     0.200
    -1.639    91.389     0.200
    -1.337    91.885     0.200
    -0.732    91.992     0.200
    -0.363    92.323     0.200
    -0.968    93.083     0.200
    -0.957    95.018     0.200
    -2.653    95.542     0.200
    -2.215    96.039     0.200
    -0.742    96.110     0.200
    -0.908    96.213     0.200
    -2.083    96.362     0.200
    -1.655    98.149     0.200
    -4.325    18.455     0.200
    -0.891    20.425     0.200
    -0.767    21.004     0.200
    -0.941    21.354     0.200
    -2.558    21.728     0.200
    -1.058    21.728     0.200
    -0.016    21.584     0.200
    -1.494    21.750     0.200
    -0.410    22.041     0.200
    -1.851    22.645     0.200
    -1.550    22.645     0.200
    -2.841    22.852     0.200
    -0.404    23.569     0.200
    -2.040    26.306     0.200
    -0.000    27.244     0.200
    -0.578    30.683     0.200
     1.579    30.767     0.200
     1.535    31.544     0.200
     2.133    32.409     0.200
     0.540    33.116     0.200
     0.940    33.116     0.200
     0.662    33.515     0.200
     1.062    33.515     0.200
    -0.028    34.723     0.200
     1.253    36.858     0.200
     0.716    37.227     0.200
    -0.291    38.577     0.200
    -0.092    38.577     0.200
     0.996    38.638     0.200
     1.155    39.000     0.200
     0.905    39.198     0.200
     1.525    39.650     0.200
     1.003    40.677     0.200
     0.642    40.988     0.200
    -0.095    42.420     0.200
    -1.561    44.086     0.200
    -1.061    44.086     0.200
    -0.760    44.086     0.200
     0.380    51.039     0.200
    -1.545    53.928     0.200
    -0.128    55.191     0.200
    -1.513    61.528     0.200
    -1.723    63.504     0.200
     0.166    17.797     0.200
    -1.482    18.505     0.200
    -1.647    19.166     0.200
    -0.614    19.218     0.200
    -4.355    19.313     0.200
    -1.242    19.943     0.200
    -0.700    21.137     0.200
     0.300    21.183     0.200
     0.667    21.242     0.200
    -0.729    21.539     0.200
    -1.419    21.743     0.200
    -1.362    21.784     0.200
    -0.438    23.316     0.200
    -0.438    23.506     0.200
    -1.409    23.436     0.200
    -1.925    23.552     0.200
    -0.648    24.019     0.200
    -1.615    24.147     0.200
    -1.194    24.123     0.200
    -1.136    24.401     0.200
    -1.054    24.403     0.200
    -2.216    24.519     0.200
    -1.550    25.369     0.200
     1.233    25.547     0.200
    -0.627    25.554     0.200
    -1.663    25.712     0.200
    -2.720    26.326     0.200
    -1.071    26.299     0.200
    -2.715    26.591     0.200
    -0.429    26.814     0.200
    -0.676    26.842     0.200
    -0.815    27.391     0.200
    -2.479    27.465     0.200
    -1.420    27.894     0.200
    -0.422    27.883     0.200
    -0.432    28.355     0.200
    -0.658    28.571     0.200
    -1.264    28.808     0.200
    -0.953    28.942     0.200
    -1.068    29.304     0.200
    -0.045    29.436     0.200
    -0.925    29.490     0.200
    -0.722    29.716     0.200
     0.229    29.947     0.200
    -0.468    29.902     0.200
    -1.640    30.034     0.200
    -1.985    29.926     0.200
     0.430    30.049     0.200
    -0.822    30.202     0.200
    -1.645    30.295     0.200
    -0.504    30.686     0.200
    -1.969    31.351     0.200
    -1.803    31.525     0.200
    -1.124    31.482     0.200
    -0.412    31.697     0.200
     1.824    31.772     0.200
    -1.458    31.861     0.200
     0.298    31.957     0.200
    -0.617    32.129     0.200
    -0.604    32.447     0.200
    -0.807    32.493     0.200
    -1.033    32.747     0.200
    -0.436    33.159     0.200
    -1.114    33.225     0.200
    -1.271    33.484     0.200
    -0.788    33.612     0.200
    -1.581    33.726     0.200
    -1.700    33.820     0.200
    -0.422    33.880     0.200
    -1.500    33.935     0.200
    -0.576    34.243     0.200
    -1.283    34.302     0.200
    -0.898    34.361     0.200
    -0.838    34.562     0.200
    -0.807    34.628     0.200
    -1.512    35.277     0.200
    -1.600    35.287     0.200
    -1.438    35.571     0.200
     0.496    35.893     0.200
    -0.735    36.633     0.200
    -1.288    37.098     0.200
    -0.776    37.332     0.200
     2.270    37.444     0.200
    -1.424    37.562     0.200
    -1.611    37.666     0.200
    -1.495    37.759     0.200
    -0.280    37.793     0.200
    -0.355    38.015     0.200
    -1.627    38.094     0.200
    -1.374    38.159     0.200
    -0.753    39.636     0.200
    -0.312    41.347     0.200
    -0.855    42.982     0.200
    -0.909    43.186     0.200
    -1.019    43.422     0.200
    -0.701    44.166     0.200
     0.621    44.188     0.200
    -1.401    44.541     0.200
     0.249    45.061     0.200
    -0.512    45.459     0.200
    -0.563    45.781     0.200
    -1.175    46.659     0.200
    -0.353    46.963     0.200
    -0.056    47.245     0.200
    -2.394    47.932     0.200
    -1.092    48.709     0.200
    -0.961    50.092     0.200
    -1.058    50.633     0.200
     0.653    51.509     0.200
    -1.003    55.618     0.200
    -0.132    58.991     0.200
    -0.928    59.975     0.200
    -0.408    60.073     0.200
     0.048    61.032     0.200
    -0.603    61.320     0.200
     0.283    61.410     0.200
    -1.242    61.547     0.200
    -0.724    62.005     0.200
    -1.522    62.511     0.200
    -1.401    62.793     0.200
    -0.343    62.904     0.200
    -0.986    62.941     0.200
    -1.602    62.988     0.200
     0.017    62.865     0.200
    -0.392    62.852     0.200
    -1.230    63.611     0.200
    -0.951    63.736     0.200
    -0.680    63.876     0.200
    -0.606    64.704     0.200
    -2.336    67.937     0.200
    -1.401    68.106     0.200
     0.124    69.385     0.200
    -1.384    69.694     0.200
    -0.063    69.593     0.200
    -1.138    69.849     0.200
    -0.265    70.065     0.200
    -0.080    70.100     0.200
     0.087    71.303     0.200
    -2.177    73.085     0.200
    -0.969    73.303     0.200
    -1.706    73.615     0.200
    -0.366    73.489     0.200
    -0.849    74.495     0.200
     0.346    74.633     0.200
    -1.147    76.181     0.200
    -0.434    76.196     0.200
    -0.872    77.443     0.200
    -0.356    79.047     0.200
     0.229    79.654     0.200
    -1.597    79.769     0.200
    -0.081    79.896     0.200
    -0.353    80.819     0.200
    -0.293    81.070     0.200
    -0.062    81.459     0.200
     0.089    81.866     0.200
    -0.623    82.002     0.200
    -0.446    82.714     0.200
    -0.740    82.789     0.200
    -0.249    84.250     0.200
    -1.498    85.271     0.200
    -0.953    86.696     0.200
    -1.086    87.030     0.200
    -0.930    87.204     0.200
     0.129    87.357     0.200
    -0.464    87.563     0.200
    -1.458    87.603     0.200
    -0.357    87.938     0.200
     0.117    88.239     0.200
     0.361    89.440     0.200
    -0.653    89.678     0.200
    -0.527    89.672     0.200
    -1.855    91.246     0.200
    -1.520    91.346     0.200
    -0.854    91.850     0.200
    -0.594    92.291     0.200
    -1.597    93.050     0.200
    -0.758    94.869     0.200
    -0.950    94.976     0.200
    -0.868    95.505     0.200
    -0.526    96.067     0.200
    -0.522    96.176     0.200
    -1.501    96.370     0.200
    -2.017    98.144     0.200
    -4.166    18.530     0.200
    -0.810    20.500     0.200
    -2.482    21.079     0.200
    -0.910    21.313     0.200
    -1.728    21.659     0.200
    -2.093    21.786     0.200
    -1.093    21.786     0.200
    -1.195    21.824     0.200
    -1.665    22.599     0.200
    -0.964    22.599     0.200
    -3.437    22.927     0.200
    -1.336    26.349     0.200
    -0.443    27.193     0.200
     0.084    30.675     0.200
     1.511    30.718     0.200
     1.079    31.492     0.200
     0.870    32.358     0.200
     0.198    33.063     0.200
     0.698    33.063     0.200
     0.090    33.465     0.200
    -0.114    34.674     0.200
     1.174    36.878     0.200
     2.059    36.774     0.200
     0.072    37.184     0.200
    -0.772    38.538     0.200
     1.150    38.595     0.200
     0.888    38.948     0.200
     0.605    39.149     0.200
     0.659    39.609     0.200
     1.641    40.636     0.200
     0.264    40.948     0.200
    -1.368    44.074     0.200
    -2.181    45.682     0.200
     0.829    50.992     0.200
    -0.173    55.169     0.200
    -0.033    57.051     0.200
    -1.385    61.523     0.200
    -2.422    63.473     0.200
    -2.171    18.576     0.200
    -0.947    19.238     0.200
    -1.013    19.290     0.200
    -3.086    19.388     0.200
     0.877    19.648     0.200
    -3.113    19.848     0.200
     0.051    19.970     0.200
    -0.970    20.018     0.200
     0.030    20.018     0.200
     0.144    20.026     0.200
     0.394    20.629     0.200
    -0.846    21.206     0.200
    -0.418    21.259     0.200
     0.258    21.289     0.200
    -1.532    21.856     0.200
    -1.099    23.368     0.200
    -0.084    23.433     0.200
     0.683    23.862     0.200
    -0.938    24.094     0.200
    -2.002    24.221     0.200
    -0.748    24.194     0.200
    -1.318    24.475     0.200
     0.362    24.477     0.200
    -2.272    24.580     0.200
    -1.027    24.553     0.200
    -0.005    24.770     0.200
    -1.135    24.993     0.200
    -0.835    25.422     0.200
    -0.796    25.627     0.200
    -1.403    26.401     0.200
    -1.129    26.371     0.200
    -1.992    26.643     0.200
    -0.110    26.889     0.200
    -0.357    26.917     0.200
    -1.397    27.466     0.200
    -2.657    27.529     0.200
    -1.354    27.942     0.200
    -0.592    27.957     0.200
    -0.009    28.430     0.200
    -0.827    28.645     0.200
    -2.834    28.691     0.200
    -1.022    28.881     0.200
    -1.228    29.017     0.200
    -1.393    29.373     0.200
    -2.521    29.501     0.200
    -0.921    29.534     0.200
    -0.582    29.790     0.200
    -1.790    30.084     0.200
     0.367    30.123     0.200
    -1.390    30.276     0.200
    -0.694    30.729     0.200
     0.129    30.761     0.200
    -2.051    31.417     0.200
    -1.633    31.573     0.200
    -1.186    31.557     0.200
     0.138    32.032     0.200
    -0.575    32.204     0.200
    -0.564    32.522     0.200
    -0.656    32.567     0.200
    -1.092    32.822     0.200
     0.091    32.835     0.200
    -1.036    32.872     0.200
    -0.166    33.093     0.200
    -1.173    33.300     0.200
    -1.228    33.559     0.200
    -0.778    33.955     0.200
    -1.661    34.011     0.200
    -1.920    34.317     0.200
    -1.241    34.377     0.200
    -0.057    34.437     0.200
    -0.766    34.703     0.200
    -0.928    35.104     0.200
    -1.461    35.352     0.200
    -1.548    35.362     0.200
    -1.688    35.646     0.200
     0.126    35.831     0.200
    -0.681    36.708     0.200
    -1.280    37.402     0.200
    -1.458    37.636     0.200
    -0.351    37.682     0.200
    -1.428    37.833     0.200
    -0.623    37.868     0.200
    -1.625    37.927     0.200
    -1.557    38.109     0.200
    -0.396    38.090     0.200
    -1.378    38.171     0.200
    -1.758    38.168     0.200
    -1.071    38.229     0.200
    -1.507    38.257     0.200
    -1.870    38.312     0.200
    -1.089    38.326     0.200
    -0.886    39.711     0.200
    -1.142    43.053     0.200
    -1.325    43.261     0.200
    -1.131    43.497     0.200
    -0.791    44.201     0.200
     0.546    44.247     0.200
     1.110    44.513     0.200
    -2.006    44.465     0.200
     0.127    45.113     0.200
     0.052    45.526     0.200
    -0.564    45.857     0.200
     0.599    46.115     0.200
    -1.155    46.733     0.200
    -0.843    47.038     0.200
    -0.050    47.321     0.200
    -2.381    48.007     0.200
    -0.874    48.784     0.200
    -0.811    50.124     0.200
    -0.577    50.674     0.200
    -0.224    51.532     0.200
     0.322    52.938     0.200
    -1.063    55.667     0.200
    -0.616    58.930     0.200
    -0.857    60.007     0.200
    -0.274    60.097     0.200
    -0.045    60.064     0.200
    -0.326    60.704     0.200
    -0.672    61.270     0.200
     0.075    61.337     0.200
    -1.263    61.490     0.200
     0.323    62.011     0.200
    -1.147    62.454     0.200
    -0.427    62.736     0.200
    -0.297    62.912     0.200
    -2.433    62.932     0.200
    -0.313    62.854     0.200
    -0.407    62.868     0.200
    -0.558    63.554     0.200
    -0.799    63.939     0.200
    -0.600    64.717     0.200
    -0.746    67.462     0.200
    -1.651    67.954     0.200
    -1.391    68.120     0.200
    -1.420    69.731     0.200
    -0.276    69.627     0.200
    -0.989    69.905     0.200
    -0.025    70.073     0.200
    -0.645    70.501     0.200
    -0.067    71.228     0.200
    -0.320    73.091     0.200
    -0.776    73.354     0.200
    -1.474    73.643     0.200
    -0.539    73.501     0.200
    -0.890    74.535     0.200
     0.747    74.718     0.200
     0.496    74.658     0.200
    -0.666    76.183     0.200
    -1.099    76.259     0.200
    -0.408    77.502     0.200
    -0.141    79.061     0.200
     0.397    79.714     0.200
    -1.307    79.807     0.200
    -0.003    79.954     0.200
    -0.164    80.876     0.200
    -0.451    81.080     0.200
     0.812    81.520     0.200
     0.099    81.920     0.200
    -0.245    82.024     0.200
    -0.410    82.744     0.200
    -0.796    82.837     0.200
     0.240    83.644     0.200
    -1.290    84.276     0.200
    -0.367    85.303     0.200
    -0.231    86.711     0.200
    -0.450    86.756     0.200
    -2.118    87.056     0.200
    -0.305    87.591     0.200
    -1.110    87.634     0.200
    -1.501    87.967     0.200
    -0.396    87.966     0.200
    -0.537    88.608     0.200
    -0.673    89.702     0.200
    -0.417    89.797     0.200
    -2.033    91.175     0.200
    -1.359    91.374     0.200
    -0.898    91.901     0.200
    -0.761    92.347     0.200
    -1.560    93.105     0.200
    -0.468    93.216     0.200
    -1.175    93.499     0.200
    -1.601    95.555     0.200
    -2.273    95.988     0.200
    -1.138    96.090     0.200
    -1.348    96.225     0.200
    -2.067    96.295     0.200
    -1.591    98.070     0.200
    -1.457    98.598     0.200
END
gmt psxy -: -R $projection -Sx -Wthin,red -K -O << END >> $psfile
    -0.207    99.727     0.200
     0.707   100.264     0.200
     0.712   101.207     0.200
     0.304   103.054     0.200
     0.090    99.687     0.200
     0.645    99.899     0.200
     0.022   100.197     0.200
     0.815   101.166     0.200
     0.105   103.013     0.200
    -1.573   104.672     0.200
     0.660    99.962     0.200
     0.596   100.246     0.200
    -1.848   100.931     0.200
     0.850   101.201     0.200
     1.044   102.080     0.200
    -1.622   102.455     0.200
     0.236   103.049     0.200
END
gmt psxy -: -R $projection -Sx -Wthin,green -K -O << END >> $psfile
   191.230    27.931     0.200
   185.015    29.529     0.200
   182.974    30.211     0.200
    99.254    45.096     0.200
    97.767    45.788     0.200
    90.957    46.653     0.200
    93.545    46.961     0.200
     0.577    95.579     0.200
     0.265    96.615     0.200
    -0.228    98.455     0.200
     0.541    98.595     0.200
     0.246    99.109     0.200
     0.932    99.358     0.200
   191.568    28.355     0.200
   182.178    30.202     0.200
   162.164    33.159     0.200
   158.220    33.726     0.200
   107.781    43.422     0.200
   100.650    45.061     0.200
    93.647    46.963     0.200
    36.257    62.904     0.200
     3.513    87.944     0.200
    -0.078    93.002     0.200
     1.394    94.857     0.200
     0.287    95.537     0.200
     0.393    95.667     0.200
     0.729    95.747     0.200
     0.377    96.573     0.200
     0.765    96.818     0.200
    -0.116    98.411     0.200
     0.808    98.518     0.200
     0.156    98.551     0.200
     0.660    99.065     0.200
     0.313    99.322     0.200
   181.918    29.790     0.200
    92.157    47.038     0.200
    40.836    61.490     0.200
    -0.064    88.276     0.200
     1.312    88.811     0.200
     0.845    89.463     0.200
    -0.143    92.928     0.200
    -0.667    94.891     0.200
    -0.746    94.908     0.200
    -0.720    95.012     0.200
     0.231    95.570     0.200
    -0.744    96.092     0.200
     0.533    96.603     0.200
    -0.911    96.878     0.200
    -0.139    98.437     0.200
     0.640    98.576     0.200
     0.341    99.090     0.200
     0.825    99.340     0.200
     0.672    99.352     0.200
END
gmt pstext -: -R $projection -F+f10p,Helvetica-Bold,green+a0.+jBL -K -O << END >> $psfile
    -8.500    12.000 PcP in green
END
gmt pstext -: -R $projection -F+f10p,Helvetica-Bold,red+a0.+jBL -O << END >> $psfile
    -9.500    12.000 Pdiff in red
END
